preference_loop.thisRepN,preference_loop.thisTrialN,preference_loop.thisN,preference_loop.thisIndex,buy_loop.thisRepN,buy_loop.thisTrialN,buy_loop.thisN,buy_loop.thisIndex,Wel_come.started,img_continue.started,Dir_text.started,img_continue_4.started,Dir_text.stopped,No_Label_Start.started,img_continue_2.started,blank_img.started,blank_img.stopped,trigger_on_time,trigger_value,img_file,no_tag_image.started,Do_you_like.started,like_slider.started,like_slider.response,like_slider.rt,Label_Start_2.started,img_continue_3.started,tag_image.started,Would_you_buy.started,buy_slider.started,buy_slider.response,buy_slider.rt,Thank.started,img_continue_5.started,participant,session,date,expName,psychopyVersion,frameRate,
,,,,,,,,12.527586249998421,12.527586249998421,,,,,,,,,,,,,,,,,,,,,,,,,00001,001,2023-05-01_17h18.56.766,My_experiment,2022.2.5,None,
,,,,,,,,,,15.0700991670019,75.0620864169905,75.06730479199905,,,,,,,,,,,,,,,,,,,,,,00001,001,2023-05-01_17h18.56.766,My_experiment,2022.2.5,None,
,,,,,,,,,,,,,82.19436195900198,82.19436195900198,,,,,,,,,,,,,,,,,,,,00001,001,2023-05-01_17h18.56.766,My_experiment,2022.2.5,None,
0,0,0,0,,,,,,,,,,,,93.06626837499789,95.10495270899264,89.55973358399933,01,Slide_013.png,89.55973358399933,92.52708883400192,92.52708883400192,0.0,0.5505289169959724,,,,,,,,,,00001,001,2023-05-01_17h18.56.766,My_experiment,2022.2.5,None,
1,0,1,0,,,,,,,,,,,,99.08277449999878,101.12159454199718,95.10495270899264,01,Slide_005.png,95.10495270899264,98.07958774999133,98.07958774999133,1.0,1.0055220000067493,,,,,,,,,,00001,001,2023-05-01_17h18.56.766,My_experiment,2022.2.5,None,
2,0,2,0,,,,,,,,,,,,104.5456664999947,106.5773111669987,101.12159454199718,01,Slide_149.png,101.12159454199718,104.08443895899109,104.08443895899109,0.0,0.45784145798825193,,,,,,,,,,00001,001,2023-05-01_17h18.56.766,My_experiment,2022.2.5,None,
3,0,3,0,,,,,,,,,,,,110.56198945899087,112.60096099998918,106.5773111669987,01,Slide_001.png,106.5773111669987,109.55159495898988,109.55159495898988,0.0,1.0077359590068227,,,,,,,,,,00001,001,2023-05-01_17h18.56.766,My_experiment,2022.2.5,None,
4,0,4,0,,,,,,,,,,,,116.52947349999158,118.56292712499271,112.60096099998918,01,Slide_029.png,112.60096099998918,115.56929933399078,115.56929933399078,1.0,0.9574048749927897,,,,,,,,,,00001,001,2023-05-01_17h18.56.766,My_experiment,2022.2.5,None,
5,0,5,0,,,,,,,,,,,,122.17953412499628,124.21368341699417,118.56292712499271,01,Slide_017.png,118.56292712499271,121.530110666994,121.530110666994,0.0,0.6476083750021644,,,,,,,,,,00001,001,2023-05-01_17h18.56.766,My_experiment,2022.2.5,None,
6,0,6,0,,,,,,,,,,,,127.76722116699966,129.80117458399036,124.21368341699417,01,Slide_065.png,124.21368341699417,127.18479141699208,127.18479141699208,0.0,0.5829449580051005,,,,,,,,,,00001,001,2023-05-01_17h18.56.766,My_experiment,2022.2.5,None,
7,0,7,0,,,,,,,,,,,,133.26318408398947,135.3011883339932,129.80117458399036,01,Slide_105.png,129.80117458399036,132.7811182919977,132.7811182919977,0.0,0.48045504100446124,,,,,,,,,,00001,001,2023-05-01_17h18.56.766,My_experiment,2022.2.5,None,
8,0,8,0,,,,,,,,,,,,139.06351183399966,141.0992811670003,135.3011883339932,01,Slide_113.png,135.3011883339932,138.26979108399246,138.26979108399246,0.0,0.789962499999092,,,,,,,,,,00001,001,2023-05-01_17h18.56.766,My_experiment,2022.2.5,None,
9,0,9,0,,,,,,,,,,,,144.9516582919896,146.98008787499566,141.0992811670003,01,Slide_073.png,141.0992811670003,144.06425641699752,144.06425641699752,0.0,0.888574290991528,,,,,,,,,,00001,001,2023-05-01_17h18.56.766,My_experiment,2022.2.5,None,
10,0,10,0,,,,,,,,,,,,150.36374975000217,152.40717533399584,146.98008787499566,01,Slide_089.png,146.98008787499566,149.96431291699992,149.96431291699992,0.0,0.39682579100190196,,,,,,,,,,00001,001,2023-05-01_17h18.56.766,My_experiment,2022.2.5,None,
11,0,11,0,,,,,,,,,,,,156.1846404169919,158.22185420899768,152.40717533399584,01,Slide_077.png,152.40717533399584,155.36919399999897,155.36919399999897,1.0,0.8165708339947741,,,,,,,,,,00001,001,2023-05-01_17h18.56.766,My_experiment,2022.2.5,None,
12,0,12,0,,,,,,,,,,,,161.68461133399978,163.71972879199893,158.22185420899768,01,Slide_117.png,158.22185420899768,161.18619449999824,161.18619449999824,1.0,0.4996332909940975,,,,,,,,,,00001,001,2023-05-01_17h18.56.766,My_experiment,2022.2.5,None,
13,0,13,0,,,,,,,,,,,,167.2515397919924,169.2911100420024,163.71972879199893,01,Slide_101.png,163.71972879199893,166.68588062499475,166.68588062499475,0.0,0.5665023329929681,,,,,,,,,,00001,001,2023-05-01_17h18.56.766,My_experiment,2022.2.5,None,
14,0,14,0,,,,,,,,,,,,173.7689234999998,175.82057508399885,169.2911100420024,01,Slide_129.png,169.2911100420024,172.26509941699624,172.26509941699624,1.0,1.505100249996758,,,,,,,,,,00001,001,2023-05-01_17h18.56.766,My_experiment,2022.2.5,None,
15,0,15,0,,,,,,,,,,,,179.3312494999991,181.35878887498984,175.82057508399885,01,Slide_061.png,175.82057508399885,178.78134483400208,178.78134483400208,0.0,0.5480968339979881,,,,,,,,,,00001,001,2023-05-01_17h18.56.766,My_experiment,2022.2.5,None,
16,0,16,0,,,,,,,,,,,,184.8851500000019,186.9222818339913,181.35878887498984,01,Slide_049.png,181.35878887498984,184.3376494589902,184.3376494589902,1.0,0.5497952500008978,,,,,,,,,,00001,001,2023-05-01_17h18.56.766,My_experiment,2022.2.5,None,
17,0,17,0,,,,,,,,,,,,190.79826583398972,192.83852933399612,186.9222818339913,01,Slide_125.png,186.9222818339913,189.89955891699356,189.89955891699356,1.0,0.8966650420043152,,,,,,,,,,00001,001,2023-05-01_17h18.56.766,My_experiment,2022.2.5,None,
18,0,18,0,,,,,,,,,,,,196.5985822090006,198.6336804169987,192.83852933399612,01,Slide_045.png,192.83852933399612,195.79893012499087,195.79893012499087,0.0,0.7964041250088485,,,,,,,,,,00001,001,2023-05-01_17h18.56.766,My_experiment,2022.2.5,None,
19,0,19,0,,,,,,,,,,,,202.10249445900263,204.14756679200218,198.6336804169987,01,Slide_093.png,198.6336804169987,201.60449766699458,201.60449766699458,0.0,0.50014225000632,,,,,,,,,,00001,001,2023-05-01_17h18.56.766,My_experiment,2022.2.5,None,
20,0,20,0,,,,,,,,,,,,207.56929045899597,209.60487320899847,204.14756679200218,01,Slide_085.png,204.14756679200218,207.11612249999598,207.11612249999598,0.0,0.4556644169933861,,,,,,,,,,00001,001,2023-05-01_17h18.56.766,My_experiment,2022.2.5,None,
21,0,21,0,,,,,,,,,,,,212.9823105839896,215.0215737089893,209.60487320899847,01,Slide_053.png,209.60487320899847,212.5701577919972,212.5701577919972,1.0,0.40845483299926855,,,,,,,,,,00001,001,2023-05-01_17h18.56.766,My_experiment,2022.2.5,None,
22,0,22,0,,,,,,,,,,,,218.73245783399034,220.76966766700207,215.0215737089893,01,Slide_133.png,215.0215737089893,217.9871780419926,217.9871780419926,0.0,0.7428169580089161,,,,,,,,,,00001,001,2023-05-01_17h18.56.766,My_experiment,2022.2.5,None,
23,0,23,0,,,,,,,,,,,,224.16985537500295,226.2176408749947,220.76966766700207,01,Slide_137.png,220.76966766700207,223.73833900000318,223.73833900000318,0.0,0.4335094999987632,,,,,,,,,,00001,001,2023-05-01_17h18.56.766,My_experiment,2022.2.5,None,
24,0,24,0,,,,,,,,,,,,229.68684945900168,231.7298325419979,226.2176408749947,01,Slide_057.png,226.2176408749947,229.17180674998963,229.17180674998963,0.0,0.5162614169967128,,,,,,,,,,00001,001,2023-05-01_17h18.56.766,My_experiment,2022.2.5,None,
25,0,25,0,,,,,,,,,,,,235.2705239999923,237.31475537500228,231.7298325419979,01,Slide_081.png,231.7298325419979,234.69974399999774,234.69974399999774,1.0,0.5728556659887545,,,,,,,,,,00001,001,2023-05-01_17h18.56.766,My_experiment,2022.2.5,None,
26,0,26,0,,,,,,,,,,,,240.77018295899325,242.80100212499383,237.31475537500228,01,Slide_097.png,237.31475537500228,240.2838692499936,240.2838692499936,1.0,0.48944245900202077,,,,,,,,,,00001,001,2023-05-01_17h18.56.766,My_experiment,2022.2.5,None,
27,0,27,0,,,,,,,,,,,,246.2704769999982,248.31100191699807,242.80100212499383,01,Slide_069.png,242.80100212499383,245.77337116700073,245.77337116700073,1.0,0.49931841700163204,,,,,,,,,,00001,001,2023-05-01_17h18.56.766,My_experiment,2022.2.5,None,
28,0,28,0,,,,,,,,,,,,252.0873189999984,254.12811112499912,248.31100191699807,01,Slide_041.png,248.31100191699807,251.2830773750029,251.2830773750029,0.0,0.8054568340012338,,,,,,,,,,00001,001,2023-05-01_17h18.56.766,My_experiment,2022.2.5,None,
29,0,29,0,,,,,,,,,,,,257.5716004589922,259.6146190839936,254.12811112499912,01,Slide_109.png,254.12811112499912,257.10056037499453,257.10056037499453,1.0,0.4722309589997167,,,,,,,,,,00001,001,2023-05-01_17h18.56.766,My_experiment,2022.2.5,None,
30,0,30,0,,,,,,,,,,,,263.2549980420008,265.2848758339969,259.6146190839936,01,Slide_121.png,259.6146190839936,262.5841815839958,262.5841815839958,1.0,0.6719037909933832,,,,,,,,,,00001,001,2023-05-01_17h18.56.766,My_experiment,2022.2.5,None,
31,0,31,0,,,,,,,,,,,,269.0672463749943,271.10520174998965,265.2848758339969,01,Slide_033.png,265.2848758339969,268.26733058399986,268.26733058399986,1.0,0.7966502080089413,,,,,,,,,,00001,001,2023-05-01_17h18.56.766,My_experiment,2022.2.5,None,
32,0,32,0,,,,,,,,,,,,274.550705458998,276.591169249994,271.10520174998965,01,Slide_153.png,271.10520174998965,274.06830787500076,274.06830787500076,0.0,0.481060542006162,,,,,,,,,,00001,001,2023-05-01_17h18.56.766,My_experiment,2022.2.5,None,
33,0,33,0,,,,,,,,,,,,280.27166533400305,282.3060347499995,276.591169249994,01,Slide_145.png,276.591169249994,279.55574845899537,279.55574845899537,1.0,0.7173578340007225,,,,,,,,,,00001,001,2023-05-01_17h18.56.766,My_experiment,2022.2.5,None,
34,0,34,0,,,,,,,,,,,,285.86776125000324,287.8988398340007,282.3060347499995,01,Slide_025.png,282.3060347499995,285.274561083992,285.274561083992,1.0,0.5905810410040431,,,,,,,,,,00001,001,2023-05-01_17h18.56.766,My_experiment,2022.2.5,None,
35,0,35,0,,,,,,,,,,,,291.60123054200085,293.6303700419958,287.8988398340007,01,Slide_009.png,287.8988398340007,290.8722684999957,290.8722684999957,1.0,0.7246774170052959,,,,,,,,,,00001,001,2023-05-01_17h18.56.766,My_experiment,2022.2.5,None,
36,0,36,0,,,,,,,,,,,,297.2383826669975,299.27868970899726,293.6303700419958,01,Slide_021.png,293.6303700419958,296.6014421250002,296.6014421250002,1.0,0.6392433750006603,,,,,,,,,,00001,001,2023-05-01_17h18.56.766,My_experiment,2022.2.5,None,
37,0,37,0,,,,,,,,,,,,302.6718713339942,304.7020664169977,299.27868970899726,01,Slide_141.png,299.27868970899726,302.2396509169921,302.2396509169921,1.0,0.43342729199503083,,,,,,,,,,00001,001,2023-05-01_17h18.56.766,My_experiment,2022.2.5,None,
38,0,38,0,,,,,,,,,,,,308.4895364999975,310.53517750000174,304.7020664169977,01,Slide_157.png,304.7020664169977,307.6859859999968,307.6859859999968,1.0,0.804638415997033,,,,,,,,,,00001,001,2023-05-01_17h18.56.766,My_experiment,2022.2.5,None,
39,0,39,0,,,,,,,,,,,,314.01850508399366,316.01115495899285,310.53517750000174,01,Slide_037.png,310.53517750000174,313.50176099999226,313.50176099999226,1.0,0.5140498749969993,,,,,,,,,,00001,001,2023-05-01_17h18.56.766,My_experiment,2022.2.5,None,
,,,,,,,,,,,,,,,,,,,,,,,,,316.01115495899285,316.01115495899285,,,,,,,,00001,001,2023-05-01_17h18.56.766,My_experiment,2022.2.5,None,
,,,,0,0,0,0,,,,,,,,329.3183576250012,331.3543347090017,321.6974559999944,03,Slide_007.png,,,,,,,,321.6974559999944,328.6753567499982,328.6753567499982,1.0,0.6468911249976372,,,00001,001,2023-05-01_17h18.56.766,My_experiment,2022.2.5,None,
,,,,1,0,1,0,,,,,,,,339.0732213750016,341.1067365420022,331.3543347090017,03,Slide_006.png,,,,,,,,331.3543347090017,338.32012291699357,338.32012291699357,1.0,0.7549980000039795,,,00001,001,2023-05-01_17h18.56.766,My_experiment,2022.2.5,None,
,,,,2,0,2,0,,,,,,,,349.26943654200295,351.3014409169991,341.1067365420022,03,Slide_012.png,,,,,,,,341.1067365420022,348.0863498749968,348.0863498749968,1.0,1.1809432090085465,,,00001,001,2023-05-01_17h18.56.766,My_experiment,2022.2.5,None,
,,,,3,0,3,0,,,,,,,,358.8734801249957,360.910532208989,351.3014409169991,03,Slide_158.png,,,,,,,,351.3014409169991,358.27632320899284,358.27632320899284,0.0,0.599332958998275,,,00001,001,2023-05-01_17h18.56.766,My_experiment,2022.2.5,None,
,,,,4,0,4,0,,,,,,,,368.9244961249933,370.9563439170015,360.910532208989,03,Slide_038.png,,,,,,,,360.910532208989,367.8778497500025,367.8778497500025,1.0,1.048686790993088,,,00001,001,2023-05-01_17h18.56.766,My_experiment,2022.2.5,None,
,,,,5,0,5,0,,,,,,,,378.5077329999913,380.5401815840014,370.9563439170015,03,Slide_004.png,,,,,,,,370.9563439170015,377.9373271249933,377.9373271249933,0.0,0.5721839170000749,,,00001,001,2023-05-01_17h18.56.766,My_experiment,2022.2.5,None,
,,,,6,0,6,0,,,,,,,,388.31980741699226,390.35389487499197,380.5401815840014,03,Slide_010.png,,,,,,,,380.5401815840014,387.5213299169991,387.5213299169991,1.0,0.7976184160070261,,,00001,001,2023-05-01_17h18.56.766,My_experiment,2022.2.5,None,
,,,,7,0,7,0,,,,,,,,397.8744900839956,399.91549549999763,390.35389487499197,03,Slide_011.png,,,,,,,,390.35389487499197,397.327330250002,397.327330250002,1.0,0.5490478330029873,,,00001,001,2023-05-01_17h18.56.766,My_experiment,2022.2.5,None,
,,,,8,0,8,0,,,,,,,,407.33756474999245,409.3700489999901,399.91549549999763,03,Slide_039.png,,,,,,,,399.91549549999763,406.8758485419967,406.8758485419967,1.0,0.45855454199772794,,,00001,001,2023-05-01_17h18.56.766,My_experiment,2022.2.5,None,
,,,,9,0,9,0,,,,,,,,416.9545372499997,418.992326416992,409.3700489999901,03,Slide_159.png,,,,,,,,409.3700489999901,416.34380516699457,416.34380516699457,0.0,0.608503915995243,,,00001,001,2023-05-01_17h18.56.766,My_experiment,2022.2.5,None,
,,,,10,0,10,0,,,,,,,,426.6759916250012,428.70837937499164,418.992326416992,03,Slide_015.png,,,,,,,,418.992326416992,425.95606108399807,425.95606108399807,0.0,0.7206733749917476,,,00001,001,2023-05-01_17h18.56.766,My_experiment,2022.2.5,None,
,,,,11,0,11,0,,,,,,,,436.63822224999603,438.6744379169977,428.70837937499164,03,Slide_028.png,,,,,,,,428.70837937499164,435.6894412919937,435.6894412919937,1.0,0.9467542909987969,,,00001,001,2023-05-01_17h18.56.766,My_experiment,2022.2.5,None,
,,,,12,0,12,0,,,,,,,,446.325649624996,448.3645590840024,438.6744379169977,03,Slide_014.png,,,,,,,,438.6744379169977,445.6432316249993,445.6432316249993,0.0,0.6830414580035722,,,00001,001,2023-05-01_17h18.56.766,My_experiment,2022.2.5,None,
,,,,13,0,13,0,,,,,,,,456.34332129199174,458.37703737500124,448.3645590840024,03,Slide_148.png,,,,,,,,448.3645590840024,455.32833587499044,455.32833587499044,0.0,1.0162095830019098,,,00001,001,2023-05-01_17h18.56.766,My_experiment,2022.2.5,None,
,,,,14,0,14,0,,,,,,,,465.9601487089967,467.9984029999905,458.37703737500124,03,Slide_160.png,,,,,,,,458.37703737500124,465.3565499589895,465.3565499589895,0.0,0.6045856250129873,,,00001,001,2023-05-01_17h18.56.766,My_experiment,2022.2.5,None,
,,,,15,0,15,0,,,,,,,,475.47645804200147,477.50815062499896,467.9984029999905,03,Slide_016.png,,,,,,,,467.9984029999905,474.97273116699944,474.97273116699944,0.0,0.505770207993919,,,00001,001,2023-05-01_17h18.56.766,My_experiment,2022.2.5,None,
,,,,16,0,16,0,,,,,,,,485.426915249991,487.4590557499905,477.50815062499896,03,Slide_002.png,,,,,,,,477.50815062499896,484.4903004999942,484.4903004999942,0.0,0.9387088749936083,,,00001,001,2023-05-01_17h18.56.766,My_experiment,2022.2.5,None,
,,,,17,0,17,0,,,,,,,,494.8767213339888,496.91182283399394,487.4590557499905,03,Slide_003.png,,,,,,,,487.4590557499905,494.440336833999,494.440336833999,0.0,0.4386377090122551,,,00001,001,2023-05-01_17h18.56.766,My_experiment,2022.2.5,None,
,,,,18,0,18,0,,,,,,,,504.79379195898946,506.8248241669935,496.91182283399394,03,Slide_138.png,,,,,,,,496.91182283399394,503.8790909590025,503.8790909590025,0.0,0.9155742920120247,,,00001,001,2023-05-01_17h18.56.766,My_experiment,2022.2.5,None,
,,,,19,0,19,0,,,,,,,,514.4563195840019,516.4930730420019,506.8248241669935,03,Slide_104.png,,,,,,,,506.8248241669935,513.8075135419931,513.8075135419931,0.0,0.6474794170062523,,,00001,001,2023-05-01_17h18.56.766,My_experiment,2022.2.5,None,
,,,,20,0,20,0,,,,,,,,524.3112708339904,526.3526617089956,516.4930730420019,03,Slide_110.png,,,,,,,,516.4930730420019,523.4617344169965,523.4617344169965,0.0,0.8498919580015354,,,00001,001,2023-05-01_17h18.56.766,My_experiment,2022.2.5,None,
,,,,21,0,21,0,,,,,,,,534.2112883749942,536.2415580840025,526.3526617089956,03,Slide_058.png,,,,,,,,526.3526617089956,533.3245853749977,533.3245853749977,0.0,0.889098624989856,,,00001,001,2023-05-01_17h18.56.766,My_experiment,2022.2.5,None,
,,,,22,0,22,0,,,,,,,,548.678356791992,550.7206805419992,536.2415580840025,03,Slide_070.png,,,,,,,,536.2415580840025,543.2257157499989,543.2257157499989,1.0,5.454781167005422,,,00001,001,2023-05-01_17h18.56.766,My_experiment,2022.2.5,None,
,,,,23,0,23,0,,,,,,,,558.2244393339934,560.2572080839891,550.7206805419992,03,Slide_064.png,,,,,,,,550.7206805419992,557.6919835000008,557.6919835000008,0.0,0.5303290839947294,,,00001,001,2023-05-01_17h18.56.766,My_experiment,2022.2.5,None,
,,,,24,0,24,0,,,,,,,,568.1412910840008,570.1836528339918,560.2572080839891,03,Slide_071.png,,,,,,,,560.2572080839891,567.2253357919981,567.2253357919981,1.0,0.9136724580021109,,,00001,001,2023-05-01_17h18.56.766,My_experiment,2022.2.5,None,
,,,,25,0,25,0,,,,,,,,577.8463219589903,579.8830937089951,570.1836528339918,03,Slide_059.png,,,,,,,,570.1836528339918,577.1470957499987,577.1470957499987,0.0,0.7001181670057122,,,00001,001,2023-05-01_17h18.56.766,My_experiment,2022.2.5,None,
,,,,26,0,26,0,,,,,,,,587.6957500419958,589.738451792,579.8830937089951,03,Slide_111.png,,,,,,,,579.8830937089951,586.8585953339934,586.8585953339934,1.0,0.8391968340001768,,,00001,001,2023-05-01_17h18.56.766,My_experiment,2022.2.5,None,
,,,,27,0,27,0,,,,,,,,597.2127382089966,599.2429756249912,589.738451792,03,Slide_139.png,,,,,,,,589.738451792,596.6978364169918,596.6978364169918,0.0,0.5157387919898611,,,00001,001,2023-05-01_17h18.56.766,My_experiment,2022.2.5,None,
,,,,28,0,28,0,,,,,,,,607.2920882920007,609.3250971669913,599.2429756249912,03,Slide_107.png,,,,,,,,599.2429756249912,606.2258215420006,606.2258215420006,1.0,1.0644701669953065,,,00001,001,2023-05-01_17h18.56.766,My_experiment,2022.2.5,None,
,,,,29,0,29,0,,,,,,,,616.7917963340005,618.8263199999928,609.3250971669913,03,Slide_067.png,,,,,,,,609.3250971669913,616.292919458996,616.292919458996,0.0,0.4970647080044728,,,00001,001,2023-05-01_17h18.56.766,My_experiment,2022.2.5,None,
,,,,30,0,30,0,,,,,,,,626.7425192919909,628.7794464999897,618.8263199999928,03,Slide_098.png,,,,,,,,618.8263199999928,625.798904833995,625.798904833995,1.0,0.9415322919958271,,,00001,001,2023-05-01_17h18.56.766,My_experiment,2022.2.5,None,
,,,,31,0,31,0,,,,,,,,636.280481291993,638.3106695839961,628.7794464999897,03,Slide_099.png,,,,,,,,628.7794464999897,635.7476523749938,635.7476523749938,1.0,0.5340916669956641,,,00001,001,2023-05-01_17h18.56.766,My_experiment,2022.2.5,None,
,,,,32,0,32,0,,,,,,,,645.8810930420004,647.912577791998,638.3106695839961,03,Slide_072.png,,,,,,,,638.3106695839961,645.2922147499921,645.2922147499921,0.0,0.588813125010347,,,00001,001,2023-05-01_17h18.56.766,My_experiment,2022.2.5,None,
,,,,33,0,33,0,,,,,,,,655.4640456249908,657.4935726249969,647.912577791998,03,Slide_066.png,,,,,,,,647.912577791998,654.893621708994,654.893621708994,0.0,0.5715406250092201,,,00001,001,2023-05-01_17h18.56.766,My_experiment,2022.2.5,None,
,,,,34,0,34,0,,,,,,,,665.3433695419953,667.3805742089899,657.4935726249969,03,Slide_106.png,,,,,,,,657.4935726249969,664.4777329170029,664.4777329170029,0.0,0.8639380000095116,,,00001,001,2023-05-01_17h18.56.766,My_experiment,2022.2.5,None,
,,,,35,0,35,0,,,,,,,,674.8269084589992,676.862148375003,667.3805742089899,03,Slide_112.png,,,,,,,,667.3805742089899,674.3482540419936,674.3482540419936,0.0,0.4754785830009496,,,00001,001,2023-05-01_17h18.56.766,My_experiment,2022.2.5,None,
,,,,36,0,36,0,,,,,,,,684.1936887089978,686.2243329170014,676.862148375003,03,Slide_116.png,,,,,,,,676.862148375003,683.8277957499959,683.8277957499959,0.0,0.3628099170018686,,,00001,001,2023-05-01_17h18.56.766,My_experiment,2022.2.5,None,
,,,,37,0,37,0,,,,,,,,693.7310549169924,695.7719087500009,686.2243329170014,03,Slide_102.png,,,,,,,,686.2243329170014,693.1952981249924,693.1952981249924,0.0,0.5379787090059835,,,00001,001,2023-05-01_17h18.56.766,My_experiment,2022.2.5,None,
,,,,38,0,38,0,,,,,,,,703.2150253339933,705.2518585840007,695.7719087500009,03,Slide_062.png,,,,,,,,695.7719087500009,702.7324355000019,702.7324355000019,0.0,0.4836030419974122,,,00001,001,2023-05-01_17h18.56.766,My_experiment,2022.2.5,None,
,,,,39,0,39,0,,,,,,,,712.6276163339935,714.6664634170011,705.2518585840007,03,Slide_076.png,,,,,,,,705.2518585840007,712.2283489169931,712.2283489169931,0.0,0.3969310419925023,,,00001,001,2023-05-01_17h18.56.766,My_experiment,2022.2.5,None,
,,,,40,0,40,0,,,,,,,,722.381655249992,724.4235275419924,714.6664634170011,03,Slide_088.png,,,,,,,,714.6664634170011,721.6347522919968,721.6347522919968,0.0,0.748403417004738,,,00001,001,2023-05-01_17h18.56.766,My_experiment,2022.2.5,None,
,,,,41,0,41,0,,,,,,,,732.0991165000014,734.1302312499902,724.4235275419924,03,Slide_063.png,,,,,,,,724.4235275419924,731.3832050839992,731.3832050839992,1.0,0.716757875008625,,,00001,001,2023-05-01_17h18.56.766,My_experiment,2022.2.5,None,
,,,,42,0,42,0,,,,,,,,741.7110908339964,743.7497021669988,734.1302312499902,03,Slide_103.png,,,,,,,,734.1302312499902,741.112472791996,741.112472791996,0.0,0.5978484170045704,,,00001,001,2023-05-01_17h18.56.766,My_experiment,2022.2.5,None,
,,,,43,0,43,0,,,,,,,,751.6278696669906,753.6669532499945,743.7497021669988,03,Slide_115.png,,,,,,,,743.7497021669988,750.7170367090002,750.7170367090002,0.0,0.9082145839929581,,,00001,001,2023-05-01_17h18.56.766,My_experiment,2022.2.5,None,
,,,,44,0,44,0,,,,,,,,761.266344417003,763.3037591250031,753.6669532499945,03,Slide_075.png,,,,,,,,753.6669532499945,760.6301412920002,760.6301412920002,0.0,0.6378181670006597,,,00001,001,2023-05-01_17h18.56.766,My_experiment,2022.2.5,None,
,,,,45,0,45,0,,,,,,,,770.665859959001,772.7100137499947,763.3037591250031,03,Slide_048.png,,,,,,,,763.3037591250031,770.2775667499955,770.2775667499955,0.0,0.3896372919989517,,,00001,001,2023-05-01_17h18.56.766,My_experiment,2022.2.5,None,
,,,,46,0,46,0,,,,,,,,780.133222791992,782.1672193749982,772.7100137499947,03,Slide_060.png,,,,,,,,772.7100137499947,779.6667912089906,779.6667912089906,0.0,0.4680605839967029,,,00001,001,2023-05-01_17h18.56.766,My_experiment,2022.2.5,None,
,,,,47,0,47,0,,,,,,,,789.6163337499893,791.652522999997,782.1672193749982,03,Slide_074.png,,,,,,,,782.1672193749982,789.1472744170023,789.1472744170023,0.0,0.4712320420076139,,,00001,001,2023-05-01_17h18.56.766,My_experiment,2022.2.5,None,
,,,,48,0,48,0,,,,,,,,799.3627185840014,801.3973092090018,791.652522999997,03,Slide_128.png,,,,,,,,791.652522999997,798.6174259589898,798.6174259589898,0.0,0.7418514590099221,,,00001,001,2023-05-01_17h18.56.766,My_experiment,2022.2.5,None,
,,,,49,0,49,0,,,,,,,,808.8004677919962,810.8367369589978,801.3973092090018,03,Slide_114.png,,,,,,,,801.3973092090018,808.3694673749997,808.3694673749997,0.0,0.43216912499337923,,,00001,001,2023-05-01_17h18.56.766,My_experiment,2022.2.5,None,
,,,,50,0,50,0,,,,,,,,818.1964413749956,820.2291375839995,810.8367369589978,03,Slide_100.png,,,,,,,,810.8367369589978,817.8145700839959,817.8145700839959,0.0,0.3802672089950647,,,00001,001,2023-05-01_17h18.56.766,My_experiment,2022.2.5,None,
,,,,51,0,51,0,,,,,,,,828.1467284999962,830.1864146669977,820.2291375839995,03,Slide_119.png,,,,,,,,820.2291375839995,827.2015017090016,827.2015017090016,1.0,0.9418426659976831,,,00001,001,2023-05-01_17h18.56.766,My_experiment,2022.2.5,None,
,,,,52,0,52,0,,,,,,,,837.6301872089971,839.6670017089928,830.1864146669977,03,Slide_131.png,,,,,,,,830.1864146669977,837.1520399169967,837.1520399169967,1.0,0.4752085829968564,,,00001,001,2023-05-01_17h18.56.766,My_experiment,2022.2.5,None,
,,,,53,0,53,0,,,,,,,,847.2682282919995,849.2972523339995,839.6670017089928,03,Slide_079.png,,,,,,,,839.6670017089928,846.6320459169947,846.6320459169947,1.0,0.6386338339943904,,,00001,001,2023-05-01_17h18.56.766,My_experiment,2022.2.5,None,
,,,,54,0,54,0,,,,,,,,856.7676134170033,858.7970910000004,849.2972523339995,03,Slide_051.png,,,,,,,,849.2972523339995,856.2805393750023,856.2805393750023,1.0,0.4894051250012126,,,00001,001,2023-05-01_17h18.56.766,My_experiment,2022.2.5,None,
,,,,55,0,55,0,,,,,,,,866.163551708989,868.2038760839932,858.7970910000004,03,Slide_092.png,,,,,,,,858.7970910000004,865.7689566670015,865.7689566670015,0.0,0.39191262499662116,,,00001,001,2023-05-01_17h18.56.766,My_experiment,2022.2.5,None,
,,,,56,0,56,0,,,,,,,,877.9976025840006,880.0382082919969,868.2038760839932,03,Slide_086.png,,,,,,,,868.2038760839932,875.1679598339979,875.1679598339979,0.0,2.8288542090012925,,,00001,001,2023-05-01_17h18.56.766,My_experiment,2022.2.5,None,
,,,,57,0,57,0,,,,,,,,887.4856734170025,889.5282154169981,880.0382082919969,03,Slide_087.png,,,,,,,,880.0382082919969,887.0015862089931,887.0015862089931,0.0,0.4884201669920003,,,00001,001,2023-05-01_17h18.56.766,My_experiment,2022.2.5,None,
,,,,58,0,58,0,,,,,,,,896.8689212919999,898.8967187919916,889.5282154169981,03,Slide_044.png,,,,,,,,889.5282154169981,896.4981255839957,896.4981255839957,0.0,0.3714185830031056,,,00001,001,2023-05-01_17h18.56.766,My_experiment,2022.2.5,None,
,,,,59,0,59,0,,,,,,,,906.6690283339994,908.7042175840033,898.8967187919916,03,Slide_050.png,,,,,,,,898.8967187919916,905.8700846249994,905.8700846249994,1.0,0.7997690409974894,,,00001,001,2023-05-01_17h18.56.766,My_experiment,2022.2.5,None,
,,,,60,0,60,0,,,,,,,,916.3521762919991,918.3855983749963,908.7042175840033,03,Slide_078.png,,,,,,,,908.7042175840033,915.6713496250013,915.6713496250013,0.0,0.6820709169987822,,,00001,001,2023-05-01_17h18.56.766,My_experiment,2022.2.5,None,
,,,,61,0,61,0,,,,,,,,925.8146800839895,927.8540787499951,918.3855983749963,03,Slide_130.png,,,,,,,,918.3855983749963,925.3534382090002,925.3534382090002,1.0,0.458718374997261,,,00001,001,2023-05-01_17h18.56.766,My_experiment,2022.2.5,None,
,,,,62,0,62,0,,,,,,,,935.352905916996,937.3841584170004,927.8540787499951,03,Slide_124.png,,,,,,,,927.8540787499951,934.8216973340022,934.8216973340022,0.0,0.5324387919972651,,,00001,001,2023-05-01_17h18.56.766,My_experiment,2022.2.5,None,
,,,,63,0,63,0,,,,,,,,944.998945416999,947.0371571669966,937.3841584170004,03,Slide_118.png,,,,,,,,937.3841584170004,944.3668024169892,944.3668024169892,0.0,0.6304308749968186,,,00001,001,2023-05-01_17h18.56.766,My_experiment,2022.2.5,None,
,,,,64,0,64,0,,,,,,,,954.3863504589972,956.4224361669912,947.0371571669966,03,Slide_132.png,,,,,,,,947.0371571669966,954.0043045420025,954.0043045420025,0.0,0.38325958300265484,,,00001,001,2023-05-01_17h18.56.766,My_experiment,2022.2.5,None,
,,,,65,0,65,0,,,,,,,,963.8325186669972,965.8660589589999,956.4224361669912,03,Slide_126.png,,,,,,,,956.4224361669912,963.3996186250006,963.3996186250006,0.0,0.4303461670060642,,,00001,001,2023-05-01_17h18.56.766,My_experiment,2022.2.5,None,
,,,,66,0,66,0,,,,,,,,973.1380188339972,975.1648127919907,965.8660589589999,03,Slide_046.png,,,,,,,,965.8660589589999,972.8372528749896,972.8372528749896,0.0,0.29487895900092553,,,00001,001,2023-05-01_17h18.56.766,My_experiment,2022.2.5,None,
,,,,67,0,67,0,,,,,,,,982.7828062499902,984.8130731249985,975.1648127919907,03,Slide_052.png,,,,,,,,975.1648127919907,982.150320374989,982.150320374989,0.0,0.6302097500010859,,,00001,001,2023-05-01_17h18.56.766,My_experiment,2022.2.5,None,
,,,,68,0,68,0,,,,,,,,992.416467499992,994.4436965839996,984.8130731249985,03,Slide_091.png,,,,,,,,984.8130731249985,991.7887009589904,991.7887009589904,0.0,0.6239005839888705,,,00001,001,2023-05-01_17h18.56.766,My_experiment,2022.2.5,None,
,,,,69,0,69,0,,,,,,,,1002.1706086670019,1004.2059653339966,994.4436965839996,03,Slide_090.png,,,,,,,,994.4436965839996,1001.4230067919998,1001.4230067919998,0.0,0.7488553750008577,,,00001,001,2023-05-01_17h18.56.766,My_experiment,2022.2.5,None,
,,,,70,0,70,0,,,,,,,,1012.3829906669998,1014.4208431250008,1004.2059653339966,03,Slide_084.png,,,,,,,,1004.2059653339966,1011.1718226669909,1011.1718226669909,0.0,1.2083917089912575,,,00001,001,2023-05-01_17h18.56.766,My_experiment,2022.2.5,None,
,,,,71,0,71,0,,,,,,,,1022.0053045419918,1024.0378887919942,1014.4208431250008,03,Slide_047.png,,,,,,,,1014.4208431250008,1021.3890586670022,1021.3890586670022,0.0,0.6170357920054812,,,00001,001,2023-05-01_17h18.56.766,My_experiment,2022.2.5,None,
,,,,72,0,72,0,,,,,,,,1032.0214965420018,1034.0603204590006,1024.0378887919942,03,Slide_127.png,,,,,,,,1024.0378887919942,1031.0182611670025,1031.0182611670025,1.0,1.0049834999954328,,,00001,001,2023-05-01_17h18.56.766,My_experiment,2022.2.5,None,
,,,,73,0,73,0,,,,,,,,1041.8381907089934,1043.878105124997,1034.0603204590006,03,Slide_123.png,,,,,,,,1034.0603204590006,1041.034726375001,1041.034726375001,1.0,0.8053529999888269,,,00001,001,2023-05-01_17h18.56.766,My_experiment,2022.2.5,None,
,,,,74,0,74,0,,,,,,,,1051.1898171249923,1053.2248229589895,1043.878105124997,03,Slide_043.png,,,,,,,,1043.878105124997,1050.8503104589909,1050.8503104589909,0.0,0.3317863749980461,,,00001,001,2023-05-01_17h18.56.766,My_experiment,2022.2.5,None,
,,,,75,0,75,0,,,,,,,,1060.6215130839992,1062.655363124999,1053.2248229589895,03,Slide_080.png,,,,,,,,1053.2248229589895,1060.2021007500007,1060.2021007500007,0.0,0.4210804169997573,,,00001,001,2023-05-01_17h18.56.766,My_experiment,2022.2.5,None,
,,,,76,0,76,0,,,,,,,,1070.1009919170028,1072.1360224169912,1062.655363124999,03,Slide_094.png,,,,,,,,1062.655363124999,1069.6227194999956,1069.6227194999956,0.0,0.47586637499625795,,,00001,001,2023-05-01_17h18.56.766,My_experiment,2022.2.5,None,
,,,,77,0,77,0,,,,,,,,1079.6178999589902,1081.651188459,1072.1360224169912,03,Slide_095.png,,,,,,,,1072.1360224169912,1079.1078089999937,1079.1078089999937,0.0,0.5075231660011923,,,00001,001,2023-05-01_17h18.56.766,My_experiment,2022.2.5,None,
,,,,78,0,78,0,,,,,,,,1088.6851095419988,1090.7184420839912,1081.651188459,03,Slide_056.png,,,,,,,,1081.651188459,1088.6277819590032,1088.6277819590032,0.0,0.05333208398951683,,,00001,001,2023-05-01_17h18.56.766,My_experiment,2022.2.5,None,
,,,,79,0,79,0,,,,,,,,1098.073948249992,1100.1093649999966,1090.7184420839912,03,Slide_042.png,,,,,,,,1090.7184420839912,1097.6843419999932,1097.6843419999932,0.0,0.3894499580055708,,,00001,001,2023-05-01_17h18.56.766,My_experiment,2022.2.5,None,
,,,,80,0,80,0,,,,,,,,1107.5564559589984,1109.5923360839952,1100.1093649999966,03,Slide_122.png,,,,,,,,1100.1093649999966,1107.0851759999932,1107.0851759999932,0.0,0.4732034170010593,,,00001,001,2023-05-01_17h18.56.766,My_experiment,2022.2.5,None,
,,,,81,0,81,0,,,,,,,,1116.9186933339952,1118.9496004169923,1109.5923360839952,03,Slide_136.png,,,,,,,,1109.5923360839952,1116.5709957919898,1116.5709957919898,0.0,0.3466194579959847,,,00001,001,2023-05-01_17h18.56.766,My_experiment,2022.2.5,None,
,,,,82,0,82,0,,,,,,,,1126.2731612089992,1128.308908084,1118.9496004169923,03,Slide_120.png,,,,,,,,1118.9496004169923,1125.9248878340004,1125.9248878340004,0.0,0.34941454099316616,,,00001,001,2023-05-01_17h18.56.766,My_experiment,2022.2.5,None,
,,,,83,0,83,0,,,,,,,,1135.9189971669985,1137.9490023339895,1128.308908084,03,Slide_134.png,,,,,,,,1128.308908084,1135.2772987089993,1135.2772987089993,0.0,0.6402925000002142,,,00001,001,2023-05-01_17h18.56.766,My_experiment,2022.2.5,None,
,,,,84,0,84,0,,,,,,,,1145.3905732499989,1147.4226798750024,1137.9490023339895,03,Slide_108.png,,,,,,,,1137.9490023339895,1144.9250777499983,1144.9250777499983,0.0,0.4671373750024941,,,00001,001,2023-05-01_17h18.56.766,My_experiment,2022.2.5,None,
,,,,85,0,85,0,,,,,,,,1155.1859284590028,1157.2272816249897,1147.4226798750024,03,Slide_054.png,,,,,,,,1147.4226798750024,1154.4040097919933,1154.4040097919933,0.0,0.7792654999939259,,,00001,001,2023-05-01_17h18.56.766,My_experiment,2022.2.5,None,
,,,,86,0,86,0,,,,,,,,1164.6571752500022,1166.6891662919952,1157.2272816249897,03,Slide_040.png,,,,,,,,1157.2272816249897,1164.190418166996,1164.190418166996,0.0,0.4676744169992162,,,00001,001,2023-05-01_17h18.56.766,My_experiment,2022.2.5,None,
,,,,87,0,87,0,,,,,,,,1174.8863345839927,1176.9223720419977,1166.6891662919952,03,Slide_068.png,,,,,,,,1166.6891662919952,1173.6698055000015,1173.6698055000015,0.0,1.215458332997514,,,00001,001,2023-05-01_17h18.56.766,My_experiment,2022.2.5,None,
,,,,88,0,88,0,,,,,,,,1184.503064916993,1186.5371927090018,1176.9223720419977,03,Slide_083.png,,,,,,,,1176.9223720419977,1183.8914852919988,1183.8914852919988,1.0,0.609142665998661,,,00001,001,2023-05-01_17h18.56.766,My_experiment,2022.2.5,None,
,,,,89,0,89,0,,,,,,,,1194.1244230839948,1196.1626772500022,1186.5371927090018,03,Slide_082.png,,,,,,,,1186.5371927090018,1193.508741749989,1193.508741749989,0.0,0.6168720420100726,,,00001,001,2023-05-01_17h18.56.766,My_experiment,2022.2.5,None,
,,,,90,0,90,0,,,,,,,,1203.5036779999937,1205.5374060839968,1196.1626772500022,03,Slide_096.png,,,,,,,,1196.1626772500022,1203.1374066249991,1203.1374066249991,0.0,0.3645655000000261,,,00001,001,2023-05-01_17h18.56.766,My_experiment,2022.2.5,None,
,,,,91,0,91,0,,,,,,,,1212.9910401249945,1215.0270835419942,1205.5374060839968,03,Slide_055.png,,,,,,,,1205.5374060839968,1212.5083784589951,1212.5083784589951,1.0,0.4835135830071522,,,00001,001,2023-05-01_17h18.56.766,My_experiment,2022.2.5,None,
,,,,92,0,92,0,,,,,,,,1222.4084724999993,1224.4450898749928,1215.0270835419942,03,Slide_135.png,,,,,,,,1215.0270835419942,1222.0048365419934,1222.0048365419934,0.0,0.40624991699587554,,,00001,001,2023-05-01_17h18.56.766,My_experiment,2022.2.5,None,
,,,,93,0,93,0,,,,,,,,1232.4092929999897,1234.4423214169947,1224.4450898749928,03,Slide_146.png,,,,,,,,1224.4450898749928,1231.421594208994,1231.421594208994,0.0,0.9897575829963898,,,00001,001,2023-05-01_17h18.56.766,My_experiment,2022.2.5,None,
,,,,94,0,94,0,,,,,,,,1241.9090777090023,1243.9420350839937,1234.4423214169947,03,Slide_152.png,,,,,,,,1234.4423214169947,1241.4218322499946,1241.4218322499946,0.0,0.48846337500435766,,,00001,001,2023-05-01_17h18.56.766,My_experiment,2022.2.5,None,
,,,,95,0,95,0,,,,,,,,1251.4871672500012,1253.518524250001,1243.9420350839937,03,Slide_032.png,,,,,,,,1243.9420350839937,1250.9221330419969,1250.9221330419969,0.0,0.5648497499933001,,,00001,001,2023-05-01_17h18.56.766,My_experiment,2022.2.5,None,
,,,,96,0,96,0,,,,,,,,1261.0417609169963,1263.076658334001,1253.518524250001,03,Slide_026.png,,,,,,,,1253.518524250001,1260.4917770419997,1260.4917770419997,1.0,0.550774375005858,,,00001,001,2023-05-01_17h18.56.766,My_experiment,2022.2.5,None,
,,,,97,0,97,0,,,,,,,,1270.5589700839919,1272.5982634169923,1263.076658334001,03,Slide_027.png,,,,,,,,1263.076658334001,1270.0543858750025,1270.0543858750025,1.0,0.5063250829989556,,,00001,001,2023-05-01_17h18.56.766,My_experiment,2022.2.5,None,
,,,,98,0,98,0,,,,,,,,1280.2928145839978,1282.327480708991,1272.5982634169923,03,Slide_147.png,,,,,,,,1272.5982634169923,1279.5596073749912,1279.5596073749912,1.0,0.7327922919939738,,,00001,001,2023-05-01_17h18.56.766,My_experiment,2022.2.5,None,
,,,,99,0,99,0,,,,,,,,1289.7923896249995,1291.8286224589974,1282.327480708991,03,Slide_151.png,,,,,,,,1282.327480708991,1289.305500417002,1289.305500417002,0.0,0.4894027499976801,,,00001,001,2023-05-01_17h18.56.766,My_experiment,2022.2.5,None,
,,,,100,0,100,0,,,,,,,,1299.4258890839992,1301.460212459002,1291.8286224589974,03,Slide_019.png,,,,,,,,1291.8286224589974,1298.7937925419974,1298.7937925419974,1.0,0.6331135829968844,,,00001,001,2023-05-01_17h18.56.766,My_experiment,2022.2.5,None,
,,,,101,0,101,0,,,,,,,,1308.7886399169947,1310.8202362089942,1301.460212459002,03,Slide_031.png,,,,,,,,1301.460212459002,1308.4283073749975,1308.4283073749975,1.0,0.3562272079871036,,,00001,001,2023-05-01_17h18.56.766,My_experiment,2022.2.5,None,
,,,,102,0,102,0,,,,,,,,1318.2596585839929,1320.2927499590005,1310.8202362089942,03,Slide_030.png,,,,,,,,1310.8202362089942,1317.7908493339928,1317.7908493339928,1.0,0.47091099999670405,,,00001,001,2023-05-01_17h18.56.766,My_experiment,2022.2.5,None,
,,,,103,0,103,0,,,,,,,,1327.659525458992,1329.6928788749938,1320.2927499590005,03,Slide_024.png,,,,,,,,1320.2927499590005,1327.271904084002,1327.271904084002,0.0,0.3895299159921706,,,00001,001,2023-05-01_17h18.56.766,My_experiment,2022.2.5,None,
,,,,104,0,104,0,,,,,,,,1337.405837208993,1339.4462027919944,1329.6928788749938,03,Slide_018.png,,,,,,,,1329.6928788749938,1336.6732264169987,1336.6732264169987,0.0,0.7296867919940269,,,00001,001,2023-05-01_17h18.56.766,My_experiment,2022.2.5,None,
,,,,105,0,105,0,,,,,,,,1346.7392355839984,1348.7736895839917,1339.4462027919944,03,Slide_144.png,,,,,,,,1339.4462027919944,1346.4068169590028,1346.4068169590028,0.0,0.32954641699325293,,,00001,001,2023-05-01_17h18.56.766,My_experiment,2022.2.5,None,
,,,,106,0,106,0,,,,,,,,1356.2442097089952,1358.2768449169962,1348.7736895839917,03,Slide_150.png,,,,,,,,1348.7736895839917,1355.7448334999935,1355.7448334999935,0.0,0.4999576659902232,,,00001,001,2023-05-01_17h18.56.766,My_experiment,2022.2.5,None,
,,,,107,0,107,0,,,,,,,,1365.6895146250026,1367.7229902919935,1358.2768449169962,03,Slide_154.png,,,,,,,,1358.2768449169962,1365.2569980839908,1365.2569980839908,0.0,0.4312152920028893,,,00001,001,2023-05-01_17h18.56.766,My_experiment,2022.2.5,None,
,,,,108,0,108,0,,,,,,,,1375.6898312089907,1377.724821166994,1367.7229902919935,03,Slide_140.png,,,,,,,,1367.7229902919935,1374.6951842499984,1374.6951842499984,0.0,0.9913638329890091,,,00001,001,2023-05-01_17h18.56.766,My_experiment,2022.2.5,None,
,,,,109,0,109,0,,,,,,,,1385.0899043340032,1387.1233260419976,1377.724821166994,03,Slide_020.png,,,,,,,,1377.724821166994,1384.6908492090006,1384.6908492090006,0.0,0.3979561250016559,,,00001,001,2023-05-01_17h18.56.766,My_experiment,2022.2.5,None,
,,,,110,0,110,0,,,,,,,,1395.377491249994,1397.415241374998,1387.1233260419976,03,Slide_034.png,,,,,,,,1387.1233260419976,1394.09655987499,1394.09655987499,1.0,1.2826196660025744,,,00001,001,2023-05-01_17h18.56.766,My_experiment,2022.2.5,None,
,,,,111,0,111,0,,,,,,,,1404.9903296249977,1407.024600167002,1397.415241374998,03,Slide_008.png,,,,,,,,1397.415241374998,1404.3910717499966,1404.3910717499966,0.0,0.5959197500051232,,,00001,001,2023-05-01_17h18.56.766,My_experiment,2022.2.5,None,
,,,,112,0,112,0,,,,,,,,1414.4274631669978,1416.4637852919986,1407.024600167002,03,Slide_035.png,,,,,,,,1407.024600167002,1413.9951349589974,1413.9951349589974,1.0,0.4336198329983745,,,00001,001,2023-05-01_17h18.56.766,My_experiment,2022.2.5,None,
,,,,113,0,113,0,,,,,,,,1423.8782632090006,1425.9203972499963,1416.4637852919986,03,Slide_155.png,,,,,,,,1416.4637852919986,1423.4284105419938,1423.4284105419938,0.0,0.4503593749977881,,,00001,001,2023-05-01_17h18.56.766,My_experiment,2022.2.5,None,
,,,,114,0,114,0,,,,,,,,1433.3067677919898,1435.3399796669983,1425.9203972499963,03,Slide_143.png,,,,,,,,1425.9203972499963,1432.8915291669982,1432.8915291669982,1.0,0.4142198330082465,,,00001,001,2023-05-01_17h18.56.766,My_experiment,2022.2.5,None,
,,,,115,0,115,0,,,,,,,,1444.7575043749966,1446.7875856669998,1435.3399796669983,03,Slide_023.png,,,,,,,,1435.3399796669983,1442.312658541996,1442.312658541996,0.0,2.4411505830066744,,,00001,001,2023-05-01_17h18.56.766,My_experiment,2022.2.5,None,
,,,,116,0,116,0,,,,,,,,1453.990562084,1456.0241340419889,1446.7875856669998,03,Slide_022.png,,,,,,,,1446.7875856669998,1453.7604833749938,1453.7604833749938,0.0,0.20555004201014526,,,00001,001,2023-05-01_17h18.56.766,My_experiment,2022.2.5,None,
,,,,117,0,117,0,,,,,,,,1463.0908985419956,1465.1255433749902,1456.0241340419889,03,Slide_036.png,,,,,,,,1456.0241340419889,1462.9942928749952,1462.9942928749952,0.0,0.0978080419881735,,,00001,001,2023-05-01_17h18.56.766,My_experiment,2022.2.5,None,
,,,,118,0,118,0,,,,,,,,1472.8462366250023,1474.886794459002,1465.1255433749902,03,Slide_156.png,,,,,,,,1465.1255433749902,1472.097497249997,1472.097497249997,0.0,0.7492620830016676,,,00001,001,2023-05-01_17h18.56.766,My_experiment,2022.2.5,None,
,,,,119,0,119,0,,,,,,,,1482.2963738749968,1484.291677041998,1474.886794459002,03,Slide_142.png,,,,,,,,1474.886794459002,1481.8585873339907,1481.8585873339907,1.0,0.43878208300156984,,,00001,001,2023-05-01_17h18.56.766,My_experiment,2022.2.5,None,
,,,,,,,,,,,,,,,,,,,,,,,,,,,,,,,,1484.291677041998,1484.291677041998,00001,001,2023-05-01_17h18.56.766,My_experiment,2022.2.5,None,
